pitch,roll,yaw,gyrox,gyroy,gyroz,accz,accx,accy,secayo,messageIndex,,acc
1.94,1.2,3.5,-0.82,-1.89,-0.19,1.04,0.01,-0.01,0,0,,1.040096149
-0.89,0.02,3.63,1.02,-1,0.75,1.04,0.01,0,0,1,,1.040048076
-1.15,-0.11,3.72,2.65,2.11,1.06,1.04,0.02,0,0,2,,1.04019229
-0.95,-0.02,3.78,1.12,2.55,0.59,1.05,0.02,0.01,0,3,,1.050238068
-1.67,0.27,4.03,2.05,8.39,3.79,1.03,0.02,-0.01,0,4,,1.03024269
-0.18,0.33,4.75,3.95,7.56,2.68,1.04,0,0.02,0,5,,1.04019229
0.49,0.61,5.16,8.66,-3.23,-2.8,1.01,-0.01,0,0,6,,1.010049504
0.02,-0.34,5.36,-1.32,-2.38,1.85,1.01,-0.01,0,0,7,,1.010049504
0.89,-0.1,5.75,-2.85,-2.39,2.22,1.01,-0.02,-0.01,0,8,,1.010247494
2.95,-1.72,5.82,-1.75,16.65,-0.7,1.1,-0.07,-0.04,0,9,,1.102950588
4.57,0.18,3.63,7.29,-10.18,-10.7,1.05,-0.1,0,0,10,,1.054751155
-8.56,-0.81,1.17,-26.72,0.83,-3.14,0.95,0.3,-0.05,0,11,,0.997496867
-5.25,1.86,4.05,-11.67,38.39,2.62,0.97,0.21,0.08,0,12,,0.995690715
-0.03,0.06,6.44,-21.96,150.32,21.82,1.17,0.16,0.02,0,13,,1.181058847
6.93,-6.81,11.98,-37.18,205.12,60.59,1.31,-0.04,-0.21,0,14,,1.327328143
22.44,-0.55,18.9,24.01,54.6,7.73,1.3,-0.53,0.02,0,15,,1.404029914
18.56,0.32,19.6,1.66,-19.31,-2.82,1.36,-0.44,-0.01,0,16,,1.42944045
5.31,-2.24,22.93,27.55,-42.47,28.04,0.94,0.03,-0.15,0,17,,0.952365476
-9.74,-2.89,14.04,13.23,-172.67,-33.31,0.75,0.58,-0.32,0,18,,1.000649789
-20.56,1.68,6.42,39.95,-32.5,-24.04,1.07,0.25,-0.05,0,19,,1.099954545
-18.97,8.51,5.51,24.28,-61.89,7.66,0.94,0.37,0.12,0,20,,1.017300349
-5.25,6.42,12.43,-50.8,-72.07,-21,0.75,0.32,0.1,0,21,,0.821522976
9.14,4.16,11.35,-7.12,30.11,-15.12,1.2,-0.15,0.07,0,22,,1.211362869
-6.21,-12.99,5.79,-15.64,-7.2,-25.46,1.04,0.21,-0.2,0,23,,1.079675877
-16.13,7.88,5.51,18.92,0.37,4.89,1.17,0.03,0.19,0,24,,1.18570654
-9.15,0.89,7.06,-24.24,30.19,24.82,1.11,0.26,-0.02,0,25,,1.140219277
8.35,-1.39,12.79,-9.87,119.84,24.54,1.36,-0.21,0.09,0,26,,1.379057649
6.71,1.44,11.37,-1.27,-19.68,-10.47,1.19,-0.04,-0.05,0,27,,1.191721444
-0.71,-2.19,8.8,15.06,-149.49,-28.04,1.09,0.03,0.08,0,28,,1.093343496
-7.93,7.55,10.94,-18.27,22.48,25.79,1.24,0.08,0.22,0,29,,1.261903324
-4.2,-7.74,14.55,30.74,131.38,39.15,1.1,-0.01,0.21,0,30,,1.119910711
10.62,3.67,15.6,6.66,18.63,-8.33,1.28,-0.14,0.09,0,31,,1.290774961
0.05,-8.84,15.25,-36.56,22.98,13.59,1.39,-0.01,-0.48,0,32,,1.470578118
-13.03,4.38,14.47,26.79,48.81,11.61,1.28,0.09,0.24,0,33,,1.305411812
0.01,1.65,17.11,-24.86,29.58,16.54,1.26,0.04,-0.16,0,34,,1.270747811
2.3,-0.69,20.46,-34.68,109.77,10.98,1.09,-0.01,-0.26,0,35,,1.120624826
9.82,3.71,19.36,-14.3,-7.61,1.98,1.32,-0.17,0.17,0,36,,1.34171532
0.94,0.4,18.15,-1.96,-172.53,-45.49,1.48,0.08,0.11,0,37,,1.486236859
-4.12,12.16,16.72,-7.12,41.44,9.27,1.28,0.05,0.28,0,38,,1.311220805
-4.17,-4.93,21.08,44.37,199.77,52.2,1.24,-0.11,0.28,0,39,,1.275970219
7.78,2.79,19.65,6.04,-21.42,0.56,1.07,0.03,-0.01,0,40,,1.070467188
-6.76,-12.68,15.56,-48.11,-30.79,-26.01,1.14,0.2,-0.5,0,41,,1.260793401
-15.3,8.62,13.63,29.72,-70.55,-11.05,1.36,0.05,0.37,0,42,,1.410319113
-8.35,-1.84,12.45,11.4,15.94,8.49,1.22,0.09,-0.43,0,43,,1.296688089
4.95,2.46,16.53,23.37,45.65,-2.18,1.14,-0.2,0.11,0,44,,1.162626337
6.21,5.17,15.64,3.44,-44.81,-4.1,1.18,-0.13,0.08,0,45,,1.189831921
-12.88,-1.1,13.22,21.81,-157.86,-7.64,0.98,0.31,0.09,0,46,,1.031794553
-18.72,9.34,16.67,5.26,31.06,36.2,1.23,0.21,0.22,0,47,,1.267043804
5.67,-2.66,24.05,51.37,-23.13,-16.85,1.36,-0.3,0.69,0,48,,1.554252232
-8.77,-0.42,22.9,24.83,-148.55,-2.3,1.26,-0.01,-0.07,0,49,,1.261982567
-9.78,7.07,23.18,5.2,-92.58,-22.77,1.68,-0.25,0.08,0,50,,1.70038231
-39.57,8.3,13.69,68.33,-206.97,-0.73,1.2,0.63,0.26,0,51,,1.380036231
-8.92,13,20.4,-66.47,9.87,7.33,0.89,0.26,0.23,0,53,,0.955301
0.69,3.58,20.49,16.19,-55.48,-2.33,1.23,-0.11,0.06,0,54,,1.236365642
12.68,5.76,17.15,18.83,-73.71,-26.05,1.13,-0.02,0.2,0,59,,1.147736904
-1.71,-3.71,16.9,44.41,136,51.2,1.25,-0.19,0.44,0,62,,1.338730742
12.27,4.6,14.72,-16.08,65.56,-14.13,1.25,-0.25,0.09,0,63,,1.27792801
-9.86,-14.94,9.28,25.21,25.97,22.95,1.17,0.28,-0.15,0,64,,1.212353084
-17.69,6.86,9.45,-12.05,18.16,12.57,1.27,0.09,0.2,0,65,,1.28879789
-8,-6.13,10.99,-4.6,-49.42,-1.08,1.29,0.23,-0.44,0,66,,1.382244551
5.74,3.19,14.21,15.17,-12.32,-11,1.27,-0.21,0.2,0,67,,1.302689526
-5.24,-1.25,12.08,-31.11,-44.85,-48.82,1,0.33,-0.41,0,68,,1.130044247
-15.37,3.55,8.92,42.95,-153.51,-23.81,1.06,0.46,0.1,0,69,,1.159827573
-3.95,7.72,11.15,-2.07,28.77,13.79,1.47,0.01,0.16,0,70,,1.478715659
1.09,-1.45,14.92,-22.48,-11.31,-16.62,0.81,0.28,0.25,0,71,,0.892748565
17.49,5.78,17.31,17.05,6.68,-1.06,1.27,-0.37,0.12,0,72,,1.328231907
-7.88,-14.98,12.43,13.31,0.97,23.35,1.27,-0.11,-0.09,0,73,,1.27792801
-10,10.9,13.06,4.41,12.83,10.1,1.13,0.11,0.3,0,74,,1.174308307
-4.39,-18.99,12.6,37.5,134.02,32.56,0.66,0.08,-0.82,0,75,,1.055651458
9.02,3.22,15.67,3.26,10.07,4.11,1.21,-0.22,-0.01,0,76,,1.229878043
-13.97,-14.41,11.92,-1.99,59.93,20.53,1.23,0.24,-0.36,0,77,,1.303878829
-5.71,-11.4,12.75,1.58,-101.08,-22.38,1.08,0.02,-1,0,79,,1.472005435
4.58,3.08,16.81,-46.05,151.48,47.44,1.19,0,0.18,0,80,,1.203536456
12.03,-1.19,19.94,-62.07,-4.19,-36.5,1.17,0.04,-0.16,0,81,,1.181566756
1.28,7.37,16.33,38.65,-86.93,-55.55,1.17,0.06,0.21,0,82,,1.190210065
-3.55,6.98,16.12,-55.43,12.66,11.59,1.2,0.26,0.07,0,83,,1.229837388
-6.42,-3.29,20.49,-45.17,127.55,-5.52,0.92,-0.24,-0.69,0,84,,1.174776575
8.32,6.54,21,2.5,-51.49,7.52,1.28,-0.2,0.19,0,85,,1.309389171
-5.37,-4.91,19.23,9.06,-209.29,-40.1,1.07,0.3,0.03,0,86,,1.111665417
-7.87,6.86,18.13,2.47,35.84,-1.7,1.3,0.14,0.07,0,87,,1.309389171
2.03,-12.1,22.38,110.92,149.27,68.31,1.34,-0.08,-0.15,0,88,,1.350740538
12.15,7.54,24.67,-4.28,20.46,-17.83,1.23,-0.22,0.13,0,89,,1.256264303
-5.24,-15.79,18.23,14.94,27.09,0.68,1.11,0.2,-0.36,0,90,,1.18393412
-15.23,8.74,19.42,-1.76,-34.16,3.24,1.19,0.13,0.25,0,91,,1.222906374
-4.69,-3.55,19.59,-19.43,22.58,10.94,1.15,-0.02,-0.34,0,92,,1.199374837
6.54,0.73,21.49,32.5,59.64,2.68,1.34,-0.3,0.16,0,93,,1.382461573
5.28,3.62,20.84,-23.76,-70.85,-21.23,1.18,0.03,0.05,0,94,,1.1814398
-18.05,-5.74,16.32,56.82,-134.76,5.98,0.81,0.71,-0.08,0,95,,1.080092589
-10.64,10.99,17.78,-0.01,-24.18,-6.39,1.16,0.16,0.14,0,96,,1.179321839
-0.67,3.25,20.98,-67.98,-32.55,-19.03,0.87,0.27,0.31,0,97,,0.962236977
11.3,2.25,23.1,10.76,16.77,15.27,1.24,-0.26,0.04,0,98,,1.26759615
5.72,-6.5,23.38,68.6,-35.84,3.43,1.4,-0.58,0.03,0,99,,1.515684664
-19.88,12.58,19.76,22.7,-74.61,-26.86,0.92,0.23,0.26,0,100,,0.983310734
-11.96,-15.83,22.79,-3.43,57.18,69.17,1.05,0.13,-0.04,0,101,,1.058772875
3.34,0.09,31.68,10.91,-22.01,27.9,0.98,-0.14,0.06,0,102,,0.991766101
-5.65,3.82,34.4,-20.74,-132.88,-22.89,0.86,0.01,0.01,0,103,,0.860116271
-20.85,1.47,24.83,18.47,-295.87,-12.83,1.29,0.58,-0.03,0,104,,1.414708451
-29.85,9.24,25.84,40.47,-12.73,31.29,1.09,0.52,0.39,0,105,,1.269094165
3.83,-2.98,34.9,69.6,25.16,55.52,1.28,-0.53,0.42,0,106,,1.447653273
-5.83,0.68,36.38,44.12,-162.26,13.47,1.13,0.09,0.03,0,107,,1.133975308
-17.34,2.78,35.98,-24.89,26.14,-15.99,1.16,-0.02,-0.16,0,108,,1.171153278
-23.05,2.86,33.54,56.05,-92.24,26.88,0.99,0.41,0.18,0,109,,1.086554186
-16.77,7.83,38.78,-18.77,-65.84,9,1.06,0.26,0.03,0,110,,1.091833321
-6.33,-3.55,40.62,5.83,167.64,2.27,1.05,-0.09,0.04,0,111,,1.054608932
11.82,3.46,40.02,4.8,1.77,-6.36,1.04,-0.08,-0.07,0,112,,1.045418576
1.95,-9.46,38,-14.8,-153.52,-18.21,0.99,-0.19,-0.21,0,113,,1.029708697
-5.61,11.26,38.47,-9.73,25.19,-9.2,1.12,0.01,0.23,0,114,,1.143415935
-4.42,-14.63,40.22,44.7,272.9,65.35,1.16,-0.13,0.14,0,115,,1.175627492
16.05,2.36,38.28,5.05,-7.75,-13.64,1.12,-0.27,0.03,0,116,,1.152475596
-7.45,-13.02,37.32,28.41,78.81,32.71,1.12,-0.04,-0.02,0,117,,1.120892502
-7.65,9.81,38.59,8.59,-49.46,-2.88,1.04,0.12,0.2,0,118,,1.065833008
-4.87,-18.06,40.61,51.83,261.68,71.76,1.15,-0.19,-0.03,0,119,,1.165975986
15.13,5.41,40.79,28.79,-38.67,-2.09,1.16,-0.42,0.13,0,120,,1.240524083
-15.02,-8.07,43.97,25.21,-34.1,30.83,0.83,-0.08,-0.14,0,121,,0.845517593
-7.64,6.25,48.37,-4.48,-151.83,-18.48,1.16,0.08,0.14,0,122,,1.171153278
-7.64,-2.37,51.08,-11.12,18.07,28.43,1.2,-0.16,-0.2,0,123,,1.227028932
6.15,5.95,55.21,-10.95,31.81,1.14,1.2,-0.22,0.36,0,124,,1.272006289
4.29,4.7,50.98,-18.86,-45.84,-18.53,1.11,-0.08,0.06,0,125,,1.114495402
-5.23,0.41,47.88,-26.05,-238.55,-49,1.1,0.2,-0.11,0,126,,1.123432241
-20.88,7.18,45.76,6.18,17.19,8.92,1.12,0.23,0.03,0,127,,1.14376571
-7.88,-2.39,49.75,-42.77,86.43,4.57,0.99,-0.03,0.48,0,128,,1.10063618
19.2,6.73,48.63,-9.08,10.63,-23.44,1.15,-0.33,0.19,0,129,,1.211404144
-1.91,-15.32,44.93,-27.76,97.01,37.88,1.13,0.18,0.09,0,130,,1.147780467
0.34,1.77,46.03,-6.33,110.69,-9.52,1.18,0.04,0.02,0,131,,1.180847154
8.66,1.88,46.78,1.93,21.09,20.16,1.06,0.15,0.13,0,132,,1.078424777
17.24,-0.04,47.48,-17.92,125.93,-8.25,1.09,-0.27,0.2,0,133,,1.14061387
15.49,0.67,42.93,-39.85,14.54,-24.04,1,0.05,-0.05,0,134,,1.002496883
-9.52,-7.65,39.94,-9.37,126.69,4.3,0.75,0.77,-0.04,0,135,,1.075639345
16.04,-2.13,38.08,-5.37,116.07,-18.07,1.3,-0.34,0.03,0,136,,1.344061011
7.88,-5.51,37.88,-19.72,74.66,-20.68,0.97,-0.05,0.12,0,137,,0.97867257
19.19,2.43,33.82,-22.79,25.48,-18.79,0.97,-0.25,0.08,0,138,,1.004888053
7.93,-11.53,31.42,25.83,135.19,45.06,1.26,-0.41,0.37,0,139,,1.375717994
-7.95,0.99,29.35,-11.44,38.8,-10.16,0.92,0.24,0.04,0,140,,0.95163018
0.49,-0.06,29.73,-11.32,-15.86,10.95,1.07,0.1,0.01,1,141,,1.074709263
0.47,-0.5,34.05,8.1,65.07,8.92,1.15,-0.13,0.06,1,142,,1.158878768
4.79,8.49,34.22,-13.17,-43.86,-15.11,0.97,0.03,0.1,1,143,,0.975602378
-3.64,10.57,30.22,-44.88,119.45,-20.34,1.83,-0.14,0.05,1,144,,1.836028322
-8.42,14.44,14.13,477.93,-233.39,-181.12,1.34,0.22,-0.05,1,145,,1.358859816
-16.36,91.53,-19.83,-9.49,188.14,-40.6,0.17,0.38,1.8,1,146,,1.84751184
5.39,82.81,-21.7,288.48,83.18,50.75,0.46,-1.17,2.32,1,147,,2.638730755
-7.26,78.03,-19.98,10.99,-30.33,10.71,0.19,0.18,1.32,1,148,,1.345696846
-8.6,78.14,-17.24,-20.79,-5.86,16.31,0.23,0.14,1.24,1,149,,1.268897159
-15.75,70.24,-15.55,-15.26,16.02,5.01,0.34,0.28,1.04,1,150,,1.129424632
-14.57,70.4,-14.23,4.02,-60.55,4.94,0.09,0.57,1.22,1,151,,1.349592531
-18.99,66.25,-13.08,-12.51,19.06,-10.02,0.25,0.35,1.14,1,152,,1.218441628
-17.81,66.75,-15,10.92,23.67,-9.69,0.25,0.36,1.2,1,153,,1.277536692
-13.83,72.76,-15.32,3.73,-2.85,3.91,0.18,0.34,1.27,1,154,,1.326989073
